{
  "id": "ppm-neer-research-study",
  "contained": [
     {
        "id": "enrollmentgroup",
        "actual": false,
        "characteristic": [
           {
              "code": {
                 "coding": [
                    {
                       "code": "exception-responder",
                       "display": "Exceptional responder to cancer treatment",
                       "system": "http://dbmi.hms.harvard.edu/fhir/eligibility"
                    }
                 ],
                 "text": "Exceptional responder to cancer treatment"
              },
              "exclude": false,
              "valueBoolean": true
           },
           {
              "code": {
                 "coding": [
                    {
                       "code": "location-US",
                       "display": "Residents of the United States",
                       "system": "http://dbmi.hms.harvard.edu/fhir/eligibility"
                    }
                 ],
                 "text": "Living in the United States"
              },
              "exclude": false,
              "valueBoolean": true
           },
           {
              "code": {
                 "coding": [
                    {
                       "code": "30525-0",
                       "display": "Age 18 or older",
                       "system": "http://loinc.org"
                    }
                 ],
                 "text": "Age 18 or older"
              },
              "exclude": false,
              "valueRange": {
                 "low": {
                    "value": 18
                 }
              }
           }
        ],
        "code": {
           "text": "We are looking for people who have had a unique response to cancer treatments that are not effective for most other patients. Previously, these patients were dismissed as outliers under the assumption that not much could be learned, but this thinking has recently reversed dramatically. Just as detailed study of rare diseases is illuminating basic biology in a way that informs larger disease populations, early study of exceptional responders is revealing new insights into tumor heterogeneity, overcoming heterogeneity-imposed therapeutic barriers, enabling more sophisticated pre-trial patient screening and enriching genomic profiling studies.",
           "_text": {
              "extension": [
                 {
                    "url": "http://hl7.org/fhir/StructureDefinition/rendering-xhtml",
                    "valueString": "<div xmlns=\"http://www.w3.org/1999/xhtml\"><head><style>body { font: -apple-system-body; }</style></head>We are looking for people who have had a unique response to cancer treatments that are not effective for most other patients. Previously, these patients were dismissed as outliers under the assumption that not much could be learned, but this thinking has recently reversed dramatically. Just as detailed study of rare diseases is illuminating basic biology in a way that informs larger disease populations, early study of exceptional responders is revealing new insights into tumor heterogeneity, overcoming heterogeneity-imposed therapeutic barriers, enabling more sophisticated pre-trial patient screening and enriching genomic profiling studies.</div>"
                 }
              ]
           }
        },
        "name": "PPM NEER Study Inclusion Criteria",
        "type": "person",
        "resourceType": "Group"
     },
     {
        "id": "hms_organization",
        "alias": [
           "Department of Biomedical Informatics, Harvard Medical School"
        ],
        "identifier": [
           {
              "system": "https://hms.harvard.edu",
              "value": "Department of Biomedical Informatics"
           }
        ],
        "name": "Harvard Medical School",
        "resourceType": "Organization"
     }
  ],
  "contact": [
     {
        "name": "Cassandra Perry",
        "telecom": [
           {
              "system": "phone",
              "value": "(617)-432-5484"
           },
           {
              "system": "email",
              "value": "ppm@hms.harvard.edu"
           }
        ]
     }
  ],
  "description": "<center><img style='margin: 1em 0;' src='data:image/svg+xml;base64,'/>\n</center><p>“NEER” stands for <strong>Network of Enigmatic Exceptional Responders.</strong></p> <p>We are looking for people who have had a unique response to cancer treatments that are not effective for most other patients. Previously, these patients were dismissed as outliers under the assumption that not much could be learned, but this thinking has recently reversed dramatically.</p> <p>Just as detailed study of rare diseases is illuminating basic biology in a way that informs larger disease populations, early study of exceptional responders is revealing new insights into tumor heterogeneity, overcoming heterogeneity-imposed therapeutic barriers, enabling more sophisticated pre-trial patient screening and enriching genomic profiling studies.</p>\n",
  "enrollment": [
     {
        "reference": "#enrollmentgroup"
     }
  ],
  "identifier": [
     {
        "system": "http://dbmi.hms.harvard.edu",
        "value": "ppm-guidelines-ascvd-study"
     }
  ],
  "note": [
     {
        "text": "<h3>Who Can Volunteer</h3> <p>Exceptional Responders may include:</p> <ul> <li>patients in early-phase clinical trials in which only a small percentage of the patients responded to the treatments being studied,</li> <li>patients who were treated with drugs not found to be generally effective for their disease,</li> <li>patients who were treated in later-phase clinical trials of single agents or combinations,</li> <li>or even patients who were treated with established therapies.</li> </ul>\n"
     },
     {
        "text": "<h3>What to Expect</h3><p>Here's what participation in the study involves.</p> <div class=\"col-lg-3 col-md-6 col-sm-6\"> <p class=\"caption\">Register via email and give a brief description of what makes you an exceptional responder to cancer treatment.</p> </div> <div class=\"col-lg-3 col-md-6 col-sm-6\"> <p class=\"caption\">Complete an online questionnaire about your health history.</p> </div> <div class=\"col-lg-3 col-md-6 col-sm-6\"> <p class=\"caption\">Give access to your medical records.</p> </div> <div class=\"col-lg-3 col-md-6 col-sm-6\"> <p class=\"caption\">Collect blood, tumor, and stool (microbiome) samples for genetic testing.</p> </div>\n\n"
     }
  ],
  "primaryPurposeType": {
     "coding": [
        {
           "code": "screening",
           "display": "SCREENING",
           "system": "http://terminology.hl7.org/CodeSystem/research-study-prim-purp-type"
        },
        {
           "code": "health-services-research",
           "display": "HEALTH-SERVICES-RESEARCH",
           "system": "http://terminology.hl7.org/CodeSystem/research-study-prim-purp-type"
        }
     ]
  },
  "sponsor": {
     "reference": "#hms_organization"
  },
  "status": "active",
  "title": "People-Powered Medicine: Network of Enigmatic Exceptional Responders",
  "resourceType": "ResearchStudy"
}
