{
    "id": "ppmg-research-study",
    "contained": [
        {
            "id": "enrollmentgroup",
            "actual": false,
            "characteristic": [
                {
                    "code": {
                        "coding": [
                            {
                                "code": "language-english",
                                "display": "Comfortable in reading and writing in english",
                                "system": "http://dbmi.hms.harvard.edu/fhir/eligibility"
                            }
                        ],
                        "text": "Are you comfortable reading and writing in English on your iPhone?"
                    },
                    "exclude": false,
                    "valueBoolean": true
                },
                {
                    "code": {
                        "coding": [
                            {
                                "code": "location-US",
                                "display": "Residents of the United States",
                                "system": "http://dbmi.hms.harvard.edu/fhir/eligibility"
                            }
                        ],
                        "text": "Do you live in the United States?"
                    },
                    "exclude": false,
                    "valueBoolean": true
                },
                {
                    "code": {
                        "coding": [
                            {
                                "code": "30525-0",
                                "display": "Age between 40 and 75 years",
                                "system": "http://loinc.org"
                            }
                        ],
                        "text": "What is your age?"
                    },
                    "exclude": false,
                    "valueRange": {
                        "high": {
                            "value": 75
                        },
                        "low": {
                            "value": 40
                        }
                    }
                },
                {
                    "extension": [
                        {
                            "url": "http://dbmi.hms.harvard.edu/fhir/group-learnMore",
                            "valueString": "<ol><li>Open the Health app and tap the Summary tab. </li><li>Tap your profile picture in the top right-hand corner.</li><li>Under Features, <i>tap</i> <b>Health Records</b>, then tap <b>Get Started</b>. To add another provider, scroll down to Features, then tap Add Account.</li><li>You'll be prompted to allow the Health app to use your location to find hospitals and health networks near you. Choose either Allow Once, Allow While Using App or Don't Allow.</li><li>Search for your<strong>care provider / health system</strong>, then tap it.</li><li>Under Available To Connect, choose an option. </li><li>Sign in into the portal. You may be asked to save your password.</li><li>Wait for your records to update. It may take a minute for your information to appear.</li><li>Resume the <strong>second task</strong> to retrieve your health records</li></ol>"
                        }
                    ],
                    "code": {
                        "coding": [
                            {
                                "code": "link-ehrs",
                                "display": "Willing to link and share health record from your iPhone's Health app",
                                "system": "http://dbmi.hms.harvard.edu/fhir/eligibility"
                            }
                        ],
                        "text": "Are you okay to link your iPhone's Health app with your electronic health record (EHR) of your care provider(s), if not already linked?\n\nThis is required to retrieve your EHR data for estimating risk of heart disease."
                    },
                    "exclude": false,
                    "valueBoolean": true
                },
                {
                    "code": {
                        "coding": [
                            {
                                "code": "heart-status",
                                "display": "Having No history of heart attack, stroke or other heart related illness",
                                "system": "http://dbmi.hms.harvard.edu/fhir/eligibility"
                            }
                        ],
                        "text": "Have you ever had a heart attack, stroke or other heart related illness?"
                    },
                    "exclude": false,
                    "valueBoolean": false
                }
            ],
            "code": {
                "text": "This study is open to adults ages 40 and over who have not been diagnosed with atherosclerotic cardiovascular disease.\n\nParticipants must be residents of the United States.\n\nYou will need a compatible iPhone running iOS 14.0 or above and have connected the Apple Health app with your care-provider's patient portal."
            },
            "name": "PPMG Study Inclusion Criteria",
            "type": "person",
            "resourceType": "Group"
        },
        {
            "id": "hms_organization",
            "alias": [
                "Department of Biomedical Informatics, Harvard Medical School"
            ],
            "identifier": [
                {
                    "system": "https://hms.harvard.edu",
                    "value": "Department of Biomedical Informatics"
                }
            ],
            "name": "Harvard Medical School",
            "resourceType": "Organization"
        },
        {
            "id": "definition-demographic-survey",
            "meta": {
                "profile": [
                    "http://hl7.org/fhir/StructureDefinition/shareableActivityDefintiion"
                ]
            },
            "description": "Definition of a task to take a questionnaire for demographic information",
            "kind": "ServiceRequest",
            "name": "Demographic information",
            "participant": [
                {
                    "type": "patient"
                }
            ],
            "publisher": "Dept of Biomedical Informatics, Harvard Medical School",
            "purpose": "Definition of a task as part of a study participation activity for People Heart study",
            "relatedArtifact": [
                {
                    "resource": "#Questionnaire-demographic-survey",
                    "type": "depends-on"
                }
            ],
            "status": "active",
            "subtitle": "Tell us more about yourself to help estimate your risk of developing heart disease",
            "title": "Demographic information",
            "useContext": [
                {
                    "code": {
                        "code": "task",
                        "system": "http://terminology.hl7.org/CodeSystem/usage-context-type"
                    },
                    "valueReference": {
                        "reference": "#people-heart-study"
                    }
                }
            ],
            "resourceType": "ActivityDefinition"
        },
        {
            "id": "Questionnaire-demographic-survey",
            "meta": {
                "profile": [
                    "http://hl7.org/fhir/uv/sdc/StructureDefinition/sdc-questionnaire|3.5.0"
                ]
            },
            "code": [
                {
                    "code": "demographic-survey",
                    "display": "Demographic survey",
                    "system": "http://dbmi.hms.harvard.edu"
                },
                {
                    "code": "71482-4",
                    "display": "Risk assessment Document",
                    "system": "http://study.harvard.edu"
                }
            ],
            "date": "2020-11",
            "identifier": [
                {
                    "system": "http://dbmi.hms.harvard.edu",
                    "value": "demographic-survey"
                }
            ],
            "item": [
                {
                    "linkId": "notice",
                    "text": "In this survey, we will ask for your demographic information (age, gender and race), required to estimate your risk of developing heart disease risk.",
                    "type": "display"
                },
                {
                    "code": [
                        {
                            "code": "21112-8",
                            "display": "Birth Date",
                            "system": "http://loinc.org"
                        }
                    ],
                    "initial": [
                        {
                            "valueDate": "1982-01-01"
                        }
                    ],
                    "linkId": "/54126-8/21112-8",
                    "required": true,
                    "text": "Please enter your birth date.",
                    "type": "date"
                },
                {
                    "extension": [
                        {
                            "url": "http://hl7.org/fhir/StructureDefinition/questionnaire-itemControl",
                            "valueCodeableConcept": {
                                "coding": [
                                    {
                                        "code": "drop-down",
                                        "display": "Drop down",
                                        "system": "http://hl7.org/fhir/questionnaire-item-control"
                                    }
                                ],
                                "text": "Drop down"
                            }
                        }
                    ],
                    "answerOption": [
                        {
                            "valueCoding": {
                                "code": "LA2-8",
                                "display": "Male",
                                "system": "http://loinc.org"
                            }
                        },
                        {
                            "valueCoding": {
                                "code": "LA3-6",
                                "display": "Female",
                                "system": "http://loinc.org"
                            }
                        }
                    ],
                    "code": [
                        {
                            "code": "54131-8",
                            "display": "Gender",
                            "system": "http://loinc.org"
                        }
                    ],
                    "linkId": "/54126-8/54131-8",
                    "required": true,
                    "text": "Gender",
                    "type": "choice"
                },
                {
                    "extension": [
                        {
                            "url": "http://hl7.org/fhir/StructureDefinition/questionnaire-instruction",
                            "valueString": "Race is used for estimating risk of developing heart disease. While the ACC/AHA guideline considers data from African-American and White populations, we hope to collect race to better understand study participants."
                        }
                    ],
                    "answerOption": [
                        {
                            "valueCoding": {
                                "code": "LA6155-1",
                                "display": "American Indian or Alaska Native",
                                "system": "http://loinc.org"
                            }
                        },
                        {
                            "valueCoding": {
                                "code": "LA6156-9",
                                "display": "Asian",
                                "system": "http://loinc.org"
                            }
                        },
                        {
                            "valueCoding": {
                                "code": "LA6162-7",
                                "display": "Black or African American",
                                "system": "http://loinc.org"
                            }
                        },
                        {
                            "valueCoding": {
                                "code": "LA6214-6",
                                "display": "Hispanic or Latino",
                                "system": "http://loinc.org"
                            }
                        },
                        {
                            "valueCoding": {
                                "code": "LA6266-6",
                                "display": "Native Hawaiian or Pacific Islander",
                                "system": "http://loinc.org"
                            }
                        },
                        {
                            "valueCoding": {
                                "code": "LA4457-3",
                                "display": "White",
                                "system": "http://loinc.org"
                            }
                        },
                        {
                            "valueCoding": {
                                "code": "LA46-8",
                                "display": "Other",
                                "system": "http://loinc.org"
                            }
                        },
                        {
                            "valueCoding": {
                                "code": "LA4489-6",
                                "display": "Unknown",
                                "system": "http://loinc.org"
                            }
                        }
                    ],
                    "code": [
                        {
                            "code": "54134-2",
                            "display": "Race"
                        }
                    ],
                    "linkId": "race",
                    "required": true,
                    "text": "Race",
                    "type": "choice"
                }
            ],
            "name": "Demographic Survey",
            "status": "draft",
            "subjectType": [
                "Patient",
                "Person"
            ],
            "title": "Demographic Survey",
            "version": "1.0",
            "resourceType": "Questionnaire"
        },
        {
            "id": "AD-HealthRecords",
            "meta": {
                "profile": [
                    "http://hl7.org/fhir/StructureDefinition/shareableActivityDefintiion"
                ]
            },
            "code": {
                "coding": [
                    {
                        "code": "healthrecords",
                        "system": "http://smartmarkers.smarthealthit.org/vs-instruments"
                    }
                ]
            },
            "description": "Definition of a task to request health records from the Apple Health App",
            "identifier": [
                {
                    "system": "http://dbmi.hms.harvard.edu",
                    "value": "healthrecords"
                }
            ],
            "jurisdiction": [
                {
                    "coding": [
                        {
                            "code": "US",
                            "system": "urn:iso:std:iso:3166"
                        }
                    ]
                }
            ],
            "kind": "Task",
            "name": "Your Health Records",
            "participant": [
                {
                    "type": "patient"
                }
            ],
            "publisher": "Dept of Biomedical Informatics, Harvard Medical School",
            "purpose": "Task for participant to complete as part of a study activity for People Heart study",
            "status": "active",
            "subtitle": "Link your iPhone Health app with your medical records to allow access to your test results and medical history.",
            "title": "Your Health records",
            "useContext": [
                {
                    "code": {
                        "code": "task",
                        "system": "http://terminology.hl7.org/CodeSystem/usage-context-type"
                    },
                    "valueReference": {
                        "reference": "#people-heart-study"
                    }
                }
            ],
            "resourceType": "ActivityDefinition"
        },
        {
            "id": "phs-conditions",
            "meta": {
                "profile": [
                    "http://hl7.org/fhir/StructureDefinition/shareablevalueset"
                ]
            },
            "compose": {
                "include": [
                    {
                        "concept": [
                            {
                                "code": "38341003",
                                "display": "Hypertension"
                            },
                            {
                                "code": "44054006",
                                "display": "Diabetes mellitus type 2"
                            }
                        ],
                        "system": "http://snomed.info/sct"
                    }
                ]
            },
            "description": "Diagnosis codes for Hypertension and Type2 Diabetes mellitus",
            "experimental": true,
            "name": "Diagnosis records required for People Heart study",
            "publisher": "Harvard Medical School",
            "status": "draft",
            "url": "https://peoplepoweredmedicine.org/fhir/ValueSet/phs-conditions",
            "version": "1.0",
            "resourceType": "ValueSet"
        },
        {
            "id": "phs-medications",
            "meta": {
                "profile": [
                    "http://hl7.org/fhir/StructureDefinition/shareablevalueset"
                ]
            },
            "compose": {
                "include": [
                    {
                        "concept": [
                            {
                                "code": "262095",
                                "display": "Statins"
                            },
                            {
                                "code": "617314",
                                "display": "Statins"
                            },
                            {
                                "code": "617318",
                                "display": "Statins"
                            },
                            {
                                "code": "617320",
                                "display": "Statins"
                            },
                            {
                                "code": "750199",
                                "display": "Statins"
                            },
                            {
                                "code": "750203",
                                "display": "Statins"
                            },
                            {
                                "code": "750207",
                                "display": "Statins"
                            },
                            {
                                "code": "750211",
                                "display": "Statins"
                            },
                            {
                                "code": "750215",
                                "display": "Statins"
                            },
                            {
                                "code": "750227",
                                "display": "Statins"
                            },
                            {
                                "code": "750231",
                                "display": "Statins"
                            },
                            {
                                "code": "750235",
                                "display": "Statins"
                            },
                            {
                                "code": "750239",
                                "display": "Statins"
                            },
                            {
                                "code": "259255",
                                "display": "Statins"
                            },
                            {
                                "code": "404011",
                                "display": "Statins"
                            },
                            {
                                "code": "404013",
                                "display": "Statins"
                            },
                            {
                                "code": "597967",
                                "display": "Statins"
                            },
                            {
                                "code": "597971",
                                "display": "Statins"
                            },
                            {
                                "code": "597974",
                                "display": "Statins"
                            },
                            {
                                "code": "597977",
                                "display": "Statins"
                            },
                            {
                                "code": "597980",
                                "display": "Statins"
                            },
                            {
                                "code": "597984",
                                "display": "Statins"
                            },
                            {
                                "code": "597987",
                                "display": "Statins"
                            },
                            {
                                "code": "597990",
                                "display": "Statins"
                            },
                            {
                                "code": "597993",
                                "display": "Statins"
                            },
                            {
                                "code": "617310",
                                "display": "Statins"
                            },
                            {
                                "code": "617311",
                                "display": "Statins"
                            },
                            {
                                "code": "617312",
                                "display": "Statins"
                            },
                            {
                                "code": "2167563",
                                "display": "Statins"
                            },
                            {
                                "code": "2167567",
                                "display": "Statins"
                            },
                            {
                                "code": "2167571",
                                "display": "Statins"
                            },
                            {
                                "code": "2167575",
                                "display": "Statins"
                            },
                            {
                                "code": "859421",
                                "display": "Statins"
                            },
                            {
                                "code": "859426",
                                "display": "Statins"
                            },
                            {
                                "code": "859749",
                                "display": "Statins"
                            },
                            {
                                "code": "859753",
                                "display": "Statins"
                            },
                            {
                                "code": "2536060",
                                "display": "Statins"
                            },
                            {
                                "code": "2536062",
                                "display": "Statins"
                            },
                            {
                                "code": "2536064",
                                "display": "Statins"
                            },
                            {
                                "code": "2536066",
                                "display": "Statins"
                            },
                            {
                                "code": "2167557",
                                "display": "Statins"
                            },
                            {
                                "code": "2167565",
                                "display": "Statins"
                            },
                            {
                                "code": "2167569",
                                "display": "Statins"
                            },
                            {
                                "code": "2167573",
                                "display": "Statins"
                            },
                            {
                                "code": "2535745",
                                "display": "Statins"
                            },
                            {
                                "code": "2535747",
                                "display": "Statins"
                            },
                            {
                                "code": "2535749",
                                "display": "Statins"
                            },
                            {
                                "code": "2535750",
                                "display": "Statins"
                            },
                            {
                                "code": "859419",
                                "display": "Statins"
                            },
                            {
                                "code": "859424",
                                "display": "Statins"
                            },
                            {
                                "code": "859747",
                                "display": "Statins"
                            },
                            {
                                "code": "859751",
                                "display": "Statins"
                            },
                            {
                                "code": "206257",
                                "display": "Statins"
                            },
                            {
                                "code": "206258",
                                "display": "Statins"
                            },
                            {
                                "code": "884383",
                                "display": "Statins"
                            },
                            {
                                "code": "997006",
                                "display": "Statins"
                            },
                            {
                                "code": "997007",
                                "display": "Statins"
                            },
                            {
                                "code": "197903",
                                "display": "Statins"
                            },
                            {
                                "code": "197904",
                                "display": "Statins"
                            },
                            {
                                "code": "197905",
                                "display": "Statins"
                            },
                            {
                                "code": "359731",
                                "display": "Statins"
                            },
                            {
                                "code": "433849",
                                "display": "Statins"
                            },
                            {
                                "code": "582041",
                                "display": "Statins"
                            },
                            {
                                "code": "582042",
                                "display": "Statins"
                            },
                            {
                                "code": "582043",
                                "display": "Statins"
                            },
                            {
                                "code": "729605",
                                "display": "Statins"
                            },
                            {
                                "code": "359732",
                                "display": "Statins"
                            },
                            {
                                "code": "904668",
                                "display": "Statins"
                            },
                            {
                                "code": "904664",
                                "display": "Statins"
                            },
                            {
                                "code": "904460",
                                "display": "Statins"
                            },
                            {
                                "code": "904469",
                                "display": "Statins"
                            },
                            {
                                "code": "904477",
                                "display": "Statins"
                            },
                            {
                                "code": "904483",
                                "display": "Statins"
                            },
                            {
                                "code": "904458",
                                "display": "Statins"
                            },
                            {
                                "code": "904467",
                                "display": "Statins"
                            },
                            {
                                "code": "904475",
                                "display": "Statins"
                            },
                            {
                                "code": "904481",
                                "display": "Statins"
                            },
                            {
                                "code": "861646",
                                "display": "Statins"
                            },
                            {
                                "code": "861650",
                                "display": "Statins"
                            },
                            {
                                "code": "861654",
                                "display": "Statins"
                            },
                            {
                                "code": "2001260",
                                "display": "Statins"
                            },
                            {
                                "code": "2001264",
                                "display": "Statins"
                            },
                            {
                                "code": "2001268",
                                "display": "Statins"
                            },
                            {
                                "code": "861643",
                                "display": "Statins"
                            },
                            {
                                "code": "861648",
                                "display": "Statins"
                            },
                            {
                                "code": "861652",
                                "display": "Statins"
                            },
                            {
                                "code": "2001254",
                                "display": "Statins"
                            },
                            {
                                "code": "2001262",
                                "display": "Statins"
                            },
                            {
                                "code": "2001266",
                                "display": "Statins"
                            },
                            {
                                "code": "1944262",
                                "display": "Statins"
                            },
                            {
                                "code": "1944266",
                                "display": "Statins"
                            },
                            {
                                "code": "104490",
                                "display": "Statins"
                            },
                            {
                                "code": "104491",
                                "display": "Statins"
                            },
                            {
                                "code": "152923",
                                "display": "Statins"
                            },
                            {
                                "code": "208220",
                                "display": "Statins"
                            },
                            {
                                "code": "213319",
                                "display": "Statins"
                            },
                            {
                                "code": "1245420",
                                "display": "Statins"
                            },
                            {
                                "code": "1245430",
                                "display": "Statins"
                            },
                            {
                                "code": "1245441",
                                "display": "Statins"
                            },
                            {
                                "code": "1245449",
                                "display": "Statins"
                            },
                            {
                                "code": "1944264",
                                "display": "Statins"
                            },
                            {
                                "code": "198211",
                                "display": "Statins"
                            },
                            {
                                "code": "200345",
                                "display": "Statins"
                            },
                            {
                                "code": "312961",
                                "display": "Statins"
                            },
                            {
                                "code": "314231",
                                "display": "Statins"
                            },
                            {
                                "code": "476345",
                                "display": "Statins"
                            },
                            {
                                "code": "476349",
                                "display": "Statins"
                            },
                            {
                                "code": "476350",
                                "display": "Statins"
                            },
                            {
                                "code": "476351",
                                "display": "Statins"
                            },
                            {
                                "code": "757702",
                                "display": "Statins"
                            },
                            {
                                "code": "757703",
                                "display": "Statins"
                            },
                            {
                                "code": "757704",
                                "display": "Statins"
                            },
                            {
                                "code": "757705",
                                "display": "Statins"
                            },
                            {
                                "code": "761907",
                                "display": "Statins"
                            },
                            {
                                "code": "761909",
                                "display": "Statins"
                            },
                            {
                                "code": "762970",
                                "display": "Statins"
                            },
                            {
                                "code": "312962",
                                "display": "Statins"
                            },
                            {
                                "code": "1790679",
                                "display": "Statins"
                            },
                            {
                                "code": "103918",
                                "display": "Statins"
                            },
                            {
                                "code": "103919",
                                "display": "Statins"
                            },
                            {
                                "code": "687048",
                                "display": "Statins"
                            },
                            {
                                "code": "310404",
                                "display": "Statins"
                            },
                            {
                                "code": "310405",
                                "display": "Statins"
                            },
                            {
                                "code": "360507",
                                "display": "Statins"
                            },
                            {
                                "code": "316672",
                                "display": "Statins"
                            },
                            {
                                "code": "1422096",
                                "display": "Statins"
                            },
                            {
                                "code": "859751",
                                "display": "Statins"
                            },
                            {
                                "code": "197903",
                                "display": "Statins"
                            },
                            {
                                "code": "904467",
                                "display": "Statins"
                            },
                            {
                                "code": "1422086",
                                "display": "Statins"
                            },
                            {
                                "code": "597980",
                                "display": "Statins"
                            },
                            {
                                "code": "259255",
                                "display": "Statins"
                            },
                            {
                                "code": "83367",
                                "display": "Statins"
                            },
                            {
                                "code": "36567",
                                "display": "Statins"
                            },
                            {
                                "code": "104375",
                                "display": "Hypertension medication"
                            },
                            {
                                "code": "104376",
                                "display": "Hypertension medication"
                            },
                            {
                                "code": "104377",
                                "display": "Hypertension medication"
                            },
                            {
                                "code": "104378",
                                "display": "Hypertension medication"
                            },
                            {
                                "code": "206771",
                                "display": "Hypertension medication"
                            },
                            {
                                "code": "213482",
                                "display": "Hypertension medication"
                            },
                            {
                                "code": "206764",
                                "display": "Hypertension medication"
                            },
                            {
                                "code": "206765",
                                "display": "Hypertension medication"
                            },
                            {
                                "code": "206766",
                                "display": "Hypertension medication"
                            },
                            {
                                "code": "207965",
                                "display": "Hypertension medication"
                            },
                            {
                                "code": "823971",
                                "display": "Hypertension medication"
                            },
                            {
                                "code": "823982",
                                "display": "Hypertension medication"
                            },
                            {
                                "code": "823986",
                                "display": "Hypertension medication"
                            },
                            {
                                "code": "1806890",
                                "display": "Hypertension medication"
                            },
                            {
                                "code": "197884",
                                "display": "Hypertension medication"
                            },
                            {
                                "code": "197885",
                                "display": "Hypertension medication"
                            },
                            {
                                "code": "197886",
                                "display": "Hypertension medication"
                            },
                            {
                                "code": "197887",
                                "display": "Hypertension medication"
                            },
                            {
                                "code": "205326",
                                "display": "Hypertension medication"
                            },
                            {
                                "code": "311353",
                                "display": "Hypertension medication"
                            },
                            {
                                "code": "311354",
                                "display": "Hypertension medication"
                            },
                            {
                                "code": "314076",
                                "display": "Hypertension medication"
                            },
                            {
                                "code": "314077",
                                "display": "Hypertension medication"
                            },
                            {
                                "code": "1806884",
                                "display": "Hypertension medication"
                            },
                            {
                                "code": "352304",
                                "display": "Non Statin lipid-lowering medication"
                            },
                            {
                                "code": "2283236",
                                "display": "Non Statin lipid-lowering medication"
                            },
                            {
                                "code": "349556",
                                "display": "Non Statin lipid-lowering medication"
                            },
                            {
                                "code": "2283230",
                                "display": "Non Statin lipid-lowering medication"
                            },
                            {
                                "code": "540281",
                                "display": "Non Statin lipid-lowering medication"
                            },
                            {
                                "code": "544518",
                                "display": "Non Statin lipid-lowering medication"
                            },
                            {
                                "code": "578797",
                                "display": "Non Statin lipid-lowering medication"
                            },
                            {
                                "code": "578799",
                                "display": "Non Statin lipid-lowering medication"
                            },
                            {
                                "code": "583096",
                                "display": "Non Statin lipid-lowering medication"
                            },
                            {
                                "code": "1442165",
                                "display": "Non Statin lipid-lowering medication"
                            },
                            {
                                "code": "1442170",
                                "display": "Non Statin lipid-lowering medication"
                            },
                            {
                                "code": "702055",
                                "display": "Non Statin lipid-lowering medication"
                            },
                            {
                                "code": "702169",
                                "display": "Non Statin lipid-lowering medication"
                            },
                            {
                                "code": "763250",
                                "display": "Non Statin lipid-lowering medication"
                            },
                            {
                                "code": "763252",
                                "display": "Non Statin lipid-lowering medication"
                            },
                            {
                                "code": "828377",
                                "display": "Non Statin lipid-lowering medication"
                            },
                            {
                                "code": "828381",
                                "display": "Non Statin lipid-lowering medication"
                            },
                            {
                                "code": "860884",
                                "display": "Non Statin lipid-lowering medication"
                            },
                            {
                                "code": "860888",
                                "display": "Non Statin lipid-lowering medication"
                            },
                            {
                                "code": "141916",
                                "display": "Non Statin lipid-lowering medication"
                            },
                            {
                                "code": "200311",
                                "display": "Non Statin lipid-lowering medication"
                            },
                            {
                                "code": "310288",
                                "display": "Non Statin lipid-lowering medication"
                            },
                            {
                                "code": "310289",
                                "display": "Non Statin lipid-lowering medication"
                            },
                            {
                                "code": "349287",
                                "display": "Non Statin lipid-lowering medication"
                            },
                            {
                                "code": "351133",
                                "display": "Non Statin lipid-lowering medication"
                            },
                            {
                                "code": "389191",
                                "display": "Non Statin lipid-lowering medication"
                            },
                            {
                                "code": "477560",
                                "display": "Non Statin lipid-lowering medication"
                            },
                            {
                                "code": "477562",
                                "display": "Non Statin lipid-lowering medication"
                            },
                            {
                                "code": "483425",
                                "display": "Non Statin lipid-lowering medication"
                            },
                            {
                                "code": "483427",
                                "display": "Non Statin lipid-lowering medication"
                            },
                            {
                                "code": "483429",
                                "display": "Non Statin lipid-lowering medication"
                            },
                            {
                                "code": "577031",
                                "display": "Non Statin lipid-lowering medication"
                            },
                            {
                                "code": "616853",
                                "display": "Non Statin lipid-lowering medication"
                            },
                            {
                                "code": "616852",
                                "display": "Non Statin lipid-lowering medication"
                            },
                            {
                                "code": "749802",
                                "display": "Non Statin lipid-lowering medication"
                            },
                            {
                                "code": "749804",
                                "display": "Non Statin lipid-lowering medication"
                            },
                            {
                                "code": "828373",
                                "display": "Non Statin lipid-lowering medication"
                            },
                            {
                                "code": "828379",
                                "display": "Non Statin lipid-lowering medication"
                            },
                            {
                                "code": "860880",
                                "display": "Non Statin lipid-lowering medication"
                            },
                            {
                                "code": "860886",
                                "display": "Non Statin lipid-lowering medication"
                            },
                            {
                                "code": "1442163",
                                "display": "Non Statin lipid-lowering medication"
                            },
                            {
                                "code": "1442168",
                                "display": "Non Statin lipid-lowering medication"
                            },
                            {
                                "code": "205751",
                                "display": "Non Statin lipid-lowering medication"
                            },
                            {
                                "code": "315106",
                                "display": "Non Statin lipid-lowering medication"
                            },
                            {
                                "code": "310459",
                                "display": "Non Statin lipid-lowering medication"
                            },
                            {
                                "code": "433853",
                                "display": "Non Statin lipid-lowering medication"
                            },
                            {
                                "code": "199700",
                                "display": "Non Statin lipid-lowering medication"
                            },
                            {
                                "code": "848949",
                                "display": "Non Statin lipid-lowering medication"
                            },
                            {
                                "code": "1801280",
                                "display": "Non Statin lipid-lowering medication"
                            },
                            {
                                "code": "848951",
                                "display": "Non Statin lipid-lowering medication"
                            },
                            {
                                "code": "848943",
                                "display": "Non Statin lipid-lowering medication"
                            },
                            {
                                "code": "1801279",
                                "display": "Non Statin lipid-lowering medication"
                            },
                            {
                                "code": "1048447",
                                "display": "Non Statin lipid-lowering medication"
                            },
                            {
                                "code": "1048452",
                                "display": "Non Statin lipid-lowering medication"
                            },
                            {
                                "code": "1048445",
                                "display": "Non Statin lipid-lowering medication"
                            },
                            {
                                "code": "1048450",
                                "display": "Non Statin lipid-lowering medication"
                            },
                            {
                                "code": "866907",
                                "display": "Non Statin lipid-lowering medication"
                            },
                            {
                                "code": "866912",
                                "display": "Non Statin lipid-lowering medication"
                            },
                            {
                                "code": "866910",
                                "display": "Non Statin lipid-lowering medication"
                            },
                            {
                                "code": "866900",
                                "display": "Non Statin lipid-lowering medication"
                            },
                            {
                                "code": "866905",
                                "display": "Non Statin lipid-lowering medication"
                            },
                            {
                                "code": "1102207",
                                "display": "Non Statin lipid-lowering medication"
                            },
                            {
                                "code": "1102202",
                                "display": "Non Statin lipid-lowering medication"
                            },
                            {
                                "code": "1087302",
                                "display": "Non Statin lipid-lowering medication"
                            },
                            {
                                "code": "1087623",
                                "display": "Non Statin lipid-lowering medication"
                            },
                            {
                                "code": "1102206",
                                "display": "Non Statin lipid-lowering medication"
                            },
                            {
                                "code": "1119573",
                                "display": "Non Statin lipid-lowering medication"
                            },
                            {
                                "code": "207662",
                                "display": "Non Statin lipid-lowering medication"
                            },
                            {
                                "code": "211684",
                                "display": "Non Statin lipid-lowering medication"
                            },
                            {
                                "code": "311944",
                                "display": "Non Statin lipid-lowering medication"
                            },
                            {
                                "code": "876861",
                                "display": "Non Statin lipid-lowering medication"
                            },
                            {
                                "code": "876866",
                                "display": "Non Statin lipid-lowering medication"
                            },
                            {
                                "code": "212579",
                                "display": "Non Statin lipid-lowering medication"
                            },
                            {
                                "code": "260852",
                                "display": "Non Statin lipid-lowering medication"
                            },
                            {
                                "code": "647346",
                                "display": "Non Statin lipid-lowering medication"
                            },
                            {
                                "code": "1098135",
                                "display": "Non Statin lipid-lowering medication"
                            },
                            {
                                "code": "1098142",
                                "display": "Non Statin lipid-lowering medication"
                            },
                            {
                                "code": "1098144",
                                "display": "Non Statin lipid-lowering medication"
                            },
                            {
                                "code": "1428828",
                                "display": "Non Statin lipid-lowering medication"
                            },
                            {
                                "code": "1314672",
                                "display": "Non Statin lipid-lowering medication"
                            },
                            {
                                "code": "2121691",
                                "display": "Non Statin lipid-lowering medication"
                            },
                            {
                                "code": "1088779",
                                "display": "Non Statin lipid-lowering medication"
                            },
                            {
                                "code": "2001472",
                                "display": "Non Statin lipid-lowering medication"
                            },
                            {
                                "code": "2001474",
                                "display": "Non Statin lipid-lowering medication"
                            },
                            {
                                "code": "2001480",
                                "display": "Non Statin lipid-lowering medication"
                            },
                            {
                                "code": "2001492",
                                "display": "Non Statin lipid-lowering medication"
                            },
                            {
                                "code": "1098134",
                                "display": "Non Statin lipid-lowering medication"
                            },
                            {
                                "code": "1098141",
                                "display": "Non Statin lipid-lowering medication"
                            },
                            {
                                "code": "1098143",
                                "display": "Non Statin lipid-lowering medication"
                            },
                            {
                                "code": "198024",
                                "display": "Non Statin lipid-lowering medication"
                            },
                            {
                                "code": "198759",
                                "display": "Non Statin lipid-lowering medication"
                            },
                            {
                                "code": "198760",
                                "display": "Non Statin lipid-lowering medication"
                            },
                            {
                                "code": "199143",
                                "display": "Non Statin lipid-lowering medication"
                            },
                            {
                                "code": "200015",
                                "display": "Non Statin lipid-lowering medication"
                            },
                            {
                                "code": "243782",
                                "display": "Non Statin lipid-lowering medication"
                            },
                            {
                                "code": "247747",
                                "display": "Non Statin lipid-lowering medication"
                            },
                            {
                                "code": "311951",
                                "display": "Non Statin lipid-lowering medication"
                            },
                            {
                                "code": "311955",
                                "display": "Non Statin lipid-lowering medication"
                            },
                            {
                                "code": "311959",
                                "display": "Non Statin lipid-lowering medication"
                            },
                            {
                                "code": "311960",
                                "display": "Non Statin lipid-lowering medication"
                            },
                            {
                                "code": "311963",
                                "display": "Non Statin lipid-lowering medication"
                            },
                            {
                                "code": "314131",
                                "display": "Non Statin lipid-lowering medication"
                            },
                            {
                                "code": "391943",
                                "display": "Non Statin lipid-lowering medication"
                            },
                            {
                                "code": "796544",
                                "display": "Non Statin lipid-lowering medication"
                            },
                            {
                                "code": "848987",
                                "display": "Non Statin lipid-lowering medication"
                            },
                            {
                                "code": "881376",
                                "display": "Non Statin lipid-lowering medication"
                            },
                            {
                                "code": "1539267",
                                "display": "Non Statin lipid-lowering medication"
                            },
                            {
                                "code": "2001486",
                                "display": "Non Statin lipid-lowering medication"
                            },
                            {
                                "code": "1102196",
                                "display": "Non Statin lipid-lowering medication"
                            },
                            {
                                "code": "1102201",
                                "display": "Non Statin lipid-lowering medication"
                            },
                            {
                                "code": "283092",
                                "display": "Non Statin lipid-lowering medication"
                            },
                            {
                                "code": "311948",
                                "display": "Non Statin lipid-lowering medication"
                            },
                            {
                                "code": "891522",
                                "display": "Non Statin lipid-lowering medication"
                            },
                            {
                                "code": "1314666",
                                "display": "Non Statin lipid-lowering medication"
                            },
                            {
                                "code": "1119569",
                                "display": "Non Statin lipid-lowering medication"
                            },
                            {
                                "code": "1364854",
                                "display": "Non Statin lipid-lowering medication"
                            },
                            {
                                "code": "1364855",
                                "display": "Non Statin lipid-lowering medication"
                            },
                            {
                                "code": "1235389",
                                "display": "Non Statin lipid-lowering medication"
                            },
                            {
                                "code": "1241896",
                                "display": "Non Statin lipid-lowering medication"
                            },
                            {
                                "code": "1087298",
                                "display": "Non Statin lipid-lowering medication"
                            },
                            {
                                "code": "876858",
                                "display": "Non Statin lipid-lowering medication"
                            },
                            {
                                "code": "876863",
                                "display": "Non Statin lipid-lowering medication"
                            },
                            {
                                "code": "1234482",
                                "display": "Non Statin lipid-lowering medication"
                            },
                            {
                                "code": "1659161",
                                "display": "Non Statin lipid-lowering medication"
                            },
                            {
                                "code": "1659167",
                                "display": "Non Statin lipid-lowering medication"
                            },
                            {
                                "code": "1659179",
                                "display": "Non Statin lipid-lowering medication"
                            },
                            {
                                "code": "1659183",
                                "display": "Non Statin lipid-lowering medication"
                            },
                            {
                                "code": "1659156",
                                "display": "Non Statin lipid-lowering medication"
                            },
                            {
                                "code": "1659165",
                                "display": "Non Statin lipid-lowering medication"
                            },
                            {
                                "code": "1659177",
                                "display": "Non Statin lipid-lowering medication"
                            },
                            {
                                "code": "1659182",
                                "display": "Non Statin lipid-lowering medication"
                            },
                            {
                                "code": "1665900",
                                "display": "Non Statin lipid-lowering medication"
                            },
                            {
                                "code": "1665906",
                                "display": "Non Statin lipid-lowering medication"
                            },
                            {
                                "code": "1801322",
                                "display": "Non Statin lipid-lowering medication"
                            },
                            {
                                "code": "1665895",
                                "display": "Non Statin lipid-lowering medication"
                            },
                            {
                                "code": "1665904",
                                "display": "Non Statin lipid-lowering medication"
                            },
                            {
                                "code": "1801319",
                                "display": "Non Statin lipid-lowering medication"
                            },
                            {
                                "code": "352304",
                                "display": "Non Statin lipid-lowering medication"
                            },
                            {
                                "code": "1245420",
                                "display": "Non Statin lipid-lowering medication"
                            },
                            {
                                "code": "1245430",
                                "display": "Non Statin lipid-lowering medication"
                            },
                            {
                                "code": "1245441",
                                "display": "Non Statin lipid-lowering medication"
                            },
                            {
                                "code": "1245449",
                                "display": "Non Statin lipid-lowering medication"
                            },
                            {
                                "code": "2536060",
                                "display": "Non Statin lipid-lowering medication"
                            },
                            {
                                "code": "2536062",
                                "display": "Non Statin lipid-lowering medication"
                            },
                            {
                                "code": "2536064",
                                "display": "Non Statin lipid-lowering medication"
                            },
                            {
                                "code": "2536066",
                                "display": "Non Statin lipid-lowering medication"
                            },
                            {
                                "code": "2283236",
                                "display": "Non Statin lipid-lowering medication"
                            },
                            {
                                "code": "349556",
                                "display": "Non Statin lipid-lowering medication"
                            },
                            {
                                "code": "476345",
                                "display": "Non Statin lipid-lowering medication"
                            },
                            {
                                "code": "476349",
                                "display": "Non Statin lipid-lowering medication"
                            },
                            {
                                "code": "476350",
                                "display": "Non Statin lipid-lowering medication"
                            },
                            {
                                "code": "476351",
                                "display": "Non Statin lipid-lowering medication"
                            },
                            {
                                "code": "2535745",
                                "display": "Non Statin lipid-lowering medication"
                            },
                            {
                                "code": "2535747",
                                "display": "Non Statin lipid-lowering medication"
                            },
                            {
                                "code": "2535749",
                                "display": "Non Statin lipid-lowering medication"
                            },
                            {
                                "code": "2535750",
                                "display": "Non Statin lipid-lowering medication"
                            },
                            {
                                "code": "2283230",
                                "display": "Non Statin lipid-lowering medication"
                            }
                        ],
                        "system": "http://www.nlm.nih.gov/research/umls/rxnorm"
                    }
                ]
            },
            "description": "Medications for lowering cholesterol and hypertension",
            "experimental": true,
            "name": "Medication records required for People Heart study",
            "publisher": "Harvard Medical School",
            "status": "draft",
            "url": "https://peoplepoweredmedicine.org/fhir/ValueSet/phs-medications",
            "version": "1.0",
            "resourceType": "ValueSet"
        },
        {
            "id": "phs-observations",
            "meta": {
                "profile": [
                    "http://hl7.org/fhir/StructureDefinition/shareablevalueset"
                ]
            },
            "compose": {
                "include": [
                    {
                        "concept": [
                            {
                                "code": "2345-7",
                                "display": "Glucose"
                            },
                            {
                                "code": "2339-0",
                                "display": "Glucose"
                            },
                            {
                                "code": "4548-4",
                                "display": "HbA1c"
                            },
                            {
                                "code": "13457-7",
                                "display": "LDL"
                            },
                            {
                                "code": "18262-6",
                                "display": "LDL"
                            },
                            {
                                "code": "2089-1",
                                "display": "LDL"
                            },
                            {
                                "code": "2085-9",
                                "display": "HDL"
                            },
                            {
                                "code": "2093-3",
                                "display": "Chol"
                            },
                            {
                                "code": "35200-5",
                                "display": "Chol"
                            },
                            {
                                "code": "43396-1",
                                "display": "Non-HDL Chol"
                            },
                            {
                                "code": "2571-8",
                                "display": "Triglycerides"
                            },
                            {
                                "code": "3043-7",
                                "display": "Triglycerides"
                            },
                            {
                                "code": "55284-4",
                                "display": "BP"
                            },
                            {
                                "code": "72166-2",
                                "display": "Smoking history"
                            }
                        ],
                        "system": "http://loinc.org"
                    }
                ]
            },
            "description": "Lipid panel (Cholesterol, LDL-cholesterol, HDL-cholesterol, Triglycerides), Blood glucose, HbA1c, blood pressure and smoking history",
            "experimental": true,
            "name": "Observation records required for People Heart study",
            "publisher": "Harvard Medical School",
            "status": "draft",
            "url": "https://peoplepoweredmedicine.org/fhir/ValueSet/phs-observations",
            "version": "1.0",
            "resourceType": "ValueSet"
        },
        {
            "id": "Definition-RiskFactors-family-history",
            "meta": {
                "profile": [
                    "http://hl7.org/fhir/StructureDefinition/shareableActivityDefintiion"
                ]
            },
            "description": "",
            "kind": "Task",
            "name": "",
            "participant": [
                {
                    "type": "patient"
                }
            ],
            "publisher": "Dept of Biomedical Informatics, Harvard Medical School",
            "purpose": "Definition of a task as part of a study participation activity for People Heart study",
            "relatedArtifact": [
                {
                    "resource": "#family-history",
                    "type": "depends-on"
                }
            ],
            "status": "active",
            "subtitle": "",
            "title": "",
            "useContext": [
                {
                    "code": {
                        "code": "task",
                        "system": "http://terminology.hl7.org/CodeSystem/usage-context-type"
                    },
                    "valueReference": {
                        "reference": "#people-heart-study"
                    }
                }
            ],
            "resourceType": "ActivityDefinition"
        },
        {
            "id": "Definition-RiskFactors-chronicConditions",
            "meta": {
                "profile": [
                    "http://hl7.org/fhir/StructureDefinition/shareableActivityDefintiion"
                ]
            },
            "description": "",
            "kind": "Task",
            "name": "",
            "participant": [
                {
                    "type": "patient"
                }
            ],
            "publisher": "Dept of Biomedical Informatics, Harvard Medical School",
            "purpose": "Definition of a task as part of a study participation activity for People Heart study",
            "relatedArtifact": [
                {
                    "resource": "#chronicConditions",
                    "type": "depends-on"
                }
            ],
            "status": "active",
            "subtitle": "",
            "title": "",
            "useContext": [
                {
                    "code": {
                        "code": "task",
                        "system": "http://terminology.hl7.org/CodeSystem/usage-context-type"
                    },
                    "valueReference": {
                        "reference": "#people-heart-study"
                    }
                }
            ],
            "resourceType": "ActivityDefinition"
        },
        {
            "id": "Definition-RiskFactors-female-riskfactors",
            "meta": {
                "profile": [
                    "http://hl7.org/fhir/StructureDefinition/shareableActivityDefintiion"
                ]
            },
            "description": "",
            "kind": "Task",
            "name": "",
            "participant": [
                {
                    "type": "patient"
                }
            ],
            "publisher": "Dept of Biomedical Informatics, Harvard Medical School",
            "purpose": "Definition of a task as part of a study participation activity for People Heart study",
            "relatedArtifact": [
                {
                    "resource": "#female-riskfactors",
                    "type": "depends-on"
                }
            ],
            "status": "active",
            "subtitle": "",
            "title": "",
            "useContext": [
                {
                    "code": {
                        "code": "task",
                        "system": "http://terminology.hl7.org/CodeSystem/usage-context-type"
                    },
                    "valueReference": {
                        "reference": "#people-heart-study"
                    }
                }
            ],
            "resourceType": "ActivityDefinition"
        },
        {
            "id": "Definition-RiskFactors-southasianethnicity",
            "meta": {
                "profile": [
                    "http://hl7.org/fhir/StructureDefinition/shareableActivityDefintiion"
                ]
            },
            "description": "",
            "kind": "Task",
            "name": "",
            "participant": [
                {
                    "type": "patient"
                }
            ],
            "publisher": "Dept of Biomedical Informatics, Harvard Medical School",
            "purpose": "Definition of a task as part of a study participation activity for People Heart study",
            "relatedArtifact": [
                {
                    "resource": "#southasianethnicity",
                    "type": "depends-on"
                }
            ],
            "status": "active",
            "subtitle": "",
            "title": "",
            "useContext": [
                {
                    "code": {
                        "code": "task",
                        "system": "http://terminology.hl7.org/CodeSystem/usage-context-type"
                    },
                    "valueReference": {
                        "reference": "#people-heart-study"
                    }
                }
            ],
            "resourceType": "ActivityDefinition"
        },
        {
            "id": "Definition-RiskFactors-chronicKidneyDisease",
            "meta": {
                "profile": [
                    "http://hl7.org/fhir/StructureDefinition/shareableActivityDefintiion"
                ]
            },
            "description": "",
            "kind": "Task",
            "name": "",
            "participant": [
                {
                    "type": "patient"
                }
            ],
            "publisher": "Dept of Biomedical Informatics, Harvard Medical School",
            "purpose": "Definition of a task as part of a study participation activity for People Heart study",
            "relatedArtifact": [
                {
                    "resource": "#chronicKidneyDisease",
                    "type": "depends-on"
                }
            ],
            "status": "active",
            "subtitle": "",
            "title": "",
            "useContext": [
                {
                    "code": {
                        "code": "task",
                        "system": "http://terminology.hl7.org/CodeSystem/usage-context-type"
                    },
                    "valueReference": {
                        "reference": "#people-heart-study"
                    }
                }
            ],
            "resourceType": "ActivityDefinition"
        },
        {
            "id": "family-history",
            "code": [
                {
                    "code": "familyHistoryOfPrematureCVD",
                    "system": "http://dbmi.hms.harvard.edu"
                }
            ],
            "date": "2020-11",
            "identifier": [
                {
                    "system": "http://dbmi.hms.harvard.edu",
                    "value": "familyHistoryOfPrematureCVD"
                }
            ],
            "item": [
                {
                    "extension": [
                        {
                            "url": "http://hl7.org/fhir/StructureDefinition/questionnaire-instruction",
                            "valueString": "People with a parent or a sibling who have had a cardiovascular event (like heart attack or stroke) before the age of 55 years in men or 65 years in women, are likely to be at higher risk of developing heart disease."
                        }
                    ],
                    "code": [
                        {
                            "code": "266894000",
                            "display": "Family history of cardiovascular disease",
                            "system": "https://browser.ihtsdotools.org/"
                        }
                    ],
                    "linkId": "01",
                    "text": "Do you have a parent or sibling who have had a heart attack or stroke or other cardiovascular event before the age of 55 years in men or 65 years in women?",
                    "type": "boolean"
                }
            ],
            "status": "draft",
            "title": "Family history of premature heart disease",
            "version": "1.0",
            "resourceType": "Questionnaire"
        },
        {
            "id": "chronicConditions",
            "code": [
                {
                    "code": "chronicConditions",
                    "system": "http://dbmi.hms.harvard.edu"
                }
            ],
            "date": "2020-11",
            "identifier": [
                {
                    "system": "http://dbmi.hms.harvard.edu",
                    "value": "chronicConditions"
                }
            ],
            "item": [
                {
                    "extension": [
                        {
                            "url": "http://hl7.org/fhir/StructureDefinition/questionnaire-instruction",
                            "valueString": "Some chronic inflammatory conditions can be risk factors for developing heart disease."
                        }
                    ],
                    "answerOption": [
                        {
                            "valueCoding": {
                                "code": "ra",
                                "display": "Rheumatoid arthritis",
                                "system": "http://snomed.info/sct"
                            }
                        },
                        {
                            "valueCoding": {
                                "code": "psoriasis",
                                "display": "Psoriasis",
                                "system": "http://snomed.info/sct"
                            }
                        },
                        {
                            "valueCoding": {
                                "code": "sle",
                                "display": "Systemic Lupus Erythematosus (SLE)",
                                "system": "http://snomed.info/sct"
                            }
                        },
                        {
                            "valueCoding": {
                                "code": "ss",
                                "display": "Systemic Sclerosis",
                                "system": "http://snomed.info/sct"
                            }
                        },
                        {
                            "extension": [
                                {
                                    "url": "http://researchkit.org/vs-choiceIsExclusive",
                                    "valueBoolean": true
                                }
                            ],
                            "valueCoding": {
                                "code": "none",
                                "display": "None",
                                "system": "http://dbmi.hms.harvard.edu/fhir/vs-answerChoice"
                            }
                        }
                    ],
                    "code": [
                        {
                            "code": "chronicConditions",
                            "display": "Chronic Conditions",
                            "system": "http://dbmi.hms.harvard.edu"
                        }
                    ],
                    "linkId": "chronicConditions",
                    "repeats": true,
                    "text": "Have you been diagnosed with any of the following conditions?",
                    "type": "open-choice"
                }
            ],
            "status": "draft",
            "title": "Chronic Conditions",
            "version": "1.0",
            "resourceType": "Questionnaire"
        },
        {
            "id": "female-riskfactors",
            "code": [
                {
                    "code": "femaleriskfactors",
                    "system": "http://dbmi.hms.harvard.edu"
                }
            ],
            "date": "2020-11",
            "identifier": [
                {
                    "system": "http://dbmi.hms.harvard.edu",
                    "value": "femaleriskfactors"
                }
            ],
            "item": [
                {
                    "extension": [
                        {
                            "url": "http://hl7.org/fhir/StructureDefinition/questionnaire-instruction",
                            "valueString": "History of premature menopause (before age 40 y) and history of pregnancy-associated conditions such as preeclampsia can increase the risk of atherosclerotic cardiovascular disease."
                        }
                    ],
                    "item": [
                        {
                            "code": [
                                {
                                    "code": "105651000119100",
                                    "display": "History of pre-eclampsia",
                                    "system": "https://browser.ihtsdotools.org/"
                                }
                            ],
                            "linkId": "25",
                            "text": "Do you have a history of pre-eclampsia in the past (a condition that can arise in pregnancy)?",
                            "type": "boolean"
                        },
                        {
                            "code": [
                                {
                                    "code": "373717006",
                                    "display": "Premature menopause",
                                    "system": "https://browser.ihtsdotools.org/"
                                }
                            ],
                            "linkId": "26",
                            "text": "Do you have a history of menopause before the age of 40?",
                            "type": "boolean"
                        }
                    ],
                    "linkId": "25.1",
                    "required": false,
                    "type": "group"
                }
            ],
            "status": "draft",
            "title": "Risk Factors Survey",
            "version": "1.0",
            "resourceType": "Questionnaire"
        },
        {
            "id": "southasianethnicity",
            "code": [
                {
                    "code": "southasianethnicity",
                    "system": "http://dbmi.hms.harvard.edu"
                }
            ],
            "date": "2020-11",
            "identifier": [
                {
                    "system": "http://dbmi.hms.harvard.edu",
                    "value": "southasianethnicity"
                }
            ],
            "item": [
                {
                    "extension": [
                        {
                            "url": "http://hl7.org/fhir/StructureDefinition/questionnaire-instruction",
                            "valueString": "Studies have found individuals of South Asian ancestry to be at higher risk of developing a cardiovascular event (like heart attack or stroke)."
                        }
                    ],
                    "code": [
                        {
                            "code": "186044009",
                            "display": "South Asian ethnic group",
                            "system": "https://browser.ihtsdotools.org/"
                        }
                    ],
                    "linkId": "02",
                    "text": "Do you identify as being of South Asian ancestry?",
                    "type": "boolean"
                }
            ],
            "status": "draft",
            "title": "Ethnicity",
            "version": "1.0",
            "resourceType": "Questionnaire"
        },
        {
            "id": "chronicKidneyDisease",
            "meta": {
                "profile": [
                    "http://hl7.org/fhir/uv/sdc/StructureDefinition/sdc-questionnaire|3.5.0"
                ]
            },
            "code": [
                {
                    "code": "709044004",
                    "display": "Chronic kidney disease",
                    "system": "http://snomed.info/sct"
                }
            ],
            "date": "2020-11",
            "identifier": [
                {
                    "system": "http://snomed.info/sct",
                    "value": "709044004"
                },
                {
                    "system": "http://dbmi.hms.harvard.edu",
                    "value": "ppm-guidelines-ascvd-study"
                }
            ],
            "item": [
                {
                    "extension": [
                        {
                            "url": "http://hl7.org/fhir/StructureDefinition/questionnaire-instruction",
                            "valueString": "Chronic kidney disease can raise the risk of developing heart attack or stroke or other cardiovascular event."
                        }
                    ],
                    "linkId": "1",
                    "required": false,
                    "text": "Have you been diagnosed with chronic kidney disease but have not had dialysis or transplant?",
                    "type": "boolean"
                }
            ],
            "name": "Chronic kidney disease",
            "status": "draft",
            "subjectType": [
                "Patient",
                "Person"
            ],
            "title": "Chronic kidney disease",
            "version": "1.0",
            "resourceType": "Questionnaire"
        },
        {
            "id": "definition-recommendation",
            "meta": {
                "profile": [
                    "http://hl7.org/fhir/StructureDefinition/shareableActivityDefintiion"
                ]
            },
            "code": {
                "coding": [
                    {
                        "code": "riskandrecommendation",
                        "system": "http://dbmi.hms.harvard.edu"
                    }
                ]
            },
            "identifier": [
                {
                    "system": "http://dbmi.hms.harvard.edu",
                    "value": "task4"
                }
            ],
            "kind": "Task",
            "name": "Guideline-supported Recommendations to control blood cholesterol and prevent heart attack, stroke or other cardiovascular event",
            "participant": [
                {
                    "type": "patient"
                }
            ],
            "publisher": "Dept of Biomedical Informatics, Harvard Medical School",
            "purpose": "Definition of a task as part of a study participation activity for People Heart study",
            "status": "active",
            "title": "Guideline-supported Recommendations to control blood cholesterol and prevent heart attack, stroke or other cardiovascular event",
            "useContext": [
                {
                    "code": {
                        "code": "task",
                        "system": "http://terminology.hl7.org/CodeSystem/usage-context-type"
                    },
                    "valueReference": {
                        "reference": "#people-heart-study"
                    }
                }
            ],
            "resourceType": "ActivityDefinition"
        },
        {
            "id": "definition-followup-survey",
            "meta": {
                "profile": [
                    "http://hl7.org/fhir/StructureDefinition/shareableActivityDefintiion"
                ]
            },
            "description": "Definition of a task to take a follow-up survey",
            "kind": "ServiceRequest",
            "name": "Follow-up survey",
            "participant": [
                {
                    "type": "patient"
                }
            ],
            "publisher": "Dept of Biomedical Informatics, Harvard Medical School",
            "purpose": "Definition of a task to take a follow-up survey for People Heart study",
            "relatedArtifact": [
                {
                    "resource": "#Questionnaire-followup-survey",
                    "type": "depends-on"
                }
            ],
            "status": "active",
            "subtitle": "Please take a follow-up survey after you have had a discussion with your doctor",
            "title": "Follow-up survey",
            "useContext": [
                {
                    "code": {
                        "code": "task",
                        "system": "http://terminology.hl7.org/CodeSystem/usage-context-type"
                    },
                    "valueReference": {
                        "reference": "#people-heart-study"
                    }
                }
            ],
            "resourceType": "ActivityDefinition"
        },
        {
            "id": "Questionnaire-followup-survey",
            "code": [
                {
                    "code": "followup-survey",
                    "display": "Follow-up survey",
                    "system": "http://dbmi.hms.harvard.edu"
                }
            ],
            "copyright": "Harvard Medical School",
            "date": "2021-12-09T16:09:37.429Z",
            "description": "This survey will ascertain the impact of the recommendations made by this app.",
            "experimental": true,
            "identifier": [
                {
                    "system": "http://dbmi.hms.harvard.edu",
                    "use": "usual",
                    "value": "ppm-guidelines-ascvd-study-statinrecommended-statinfound"
                }
            ],
            "item": [
                {
                    "extension": [
                        {
                            "url": "http://hl7.org/fhir/StructureDefinition/questionnaire-instruction",
                            "valueString": "Based on your medical history and lab results, a cholesterol lowering medication is recommended to reduce the risk of developing a heart attack, stroke or other cardiovascular event.\n\nYou are not currently on this medication."
                        }
                    ],
                    "linkId": "did_you_discuss",
                    "required": true,
                    "text": "Did you discuss the recommendations provided by this app with your doctor?",
                    "type": "boolean"
                },
                {
                    "answerOption": [
                        {
                            "valueCoding": {
                                "code": "prescribed-statin",
                                "display": "Yes, I was prescribed a statin to lower cholesterol",
                                "system": "http://dbmi.hms.harvard.edu/ppm/guidelines/practitionerDiscussion"
                            }
                        },
                        {
                            "valueCoding": {
                                "code": "prescribed-other",
                                "display": "Yes, I was prescribed another medication to lower cholesterol",
                                "system": "http://dbmi.hms.harvard.edu/ppm/guidelines/practitionerDiscussion"
                            }
                        },
                        {
                            "valueCoding": {
                                "code": "notPrescribed",
                                "display": "No, I was not prescribed any medication to lower cholesterol",
                                "system": "http://dbmi.hms.harvard.edu/ppm/guidelines/practitionerDiscussion"
                            }
                        }
                    ],
                    "enableBehavior": "all",
                    "enableWhen": [
                        {
                            "answerBoolean": true,
                            "operator": "=",
                            "question": "did_you_discuss"
                        }
                    ],
                    "linkId": "discussion_result",
                    "required": true,
                    "text": "Were you then prescribed a medication to lower blood cholesterol?",
                    "type": "choice"
                },
                {
                    "enableWhen": [
                        {
                            "answerCoding": {
                                "code": "notPrescribed",
                                "system": "http://dbmi.hms.harvard.edu/ppm/guidelines/practitionerDiscussion"
                            },
                            "operator": "=",
                            "question": "discussion_result"
                        }
                    ],
                    "linkId": "discussion_result_explain_why",
                    "required": false,
                    "text": "Can you tell us why?",
                    "type": "text"
                },
                {
                    "enableBehavior": "all",
                    "enableWhen": [
                        {
                            "answerBoolean": false,
                            "operator": "=",
                            "question": "did_you_discuss"
                        }
                    ],
                    "linkId": "will.discuss.with.care.provider",
                    "required": true,
                    "text": "Would you be willing to discuss these recommendations with your doctor in the near future?",
                    "type": "boolean"
                },
                {
                    "enableBehavior": "all",
                    "enableWhen": [
                        {
                            "answerBoolean": true,
                            "operator": "=",
                            "question": "will.discuss.with.care.provider"
                        }
                    ],
                    "linkId": "final.reminding",
                    "text": "Thank you.\n\nWe will remind you to take this survey after you have had a discussion with your doctor.",
                    "type": "display"
                },
                {
                    "enableBehavior": "any",
                    "enableWhen": [
                        {
                            "answerBoolean": true,
                            "operator": "!=",
                            "question": "will.discuss.with.care.provider"
                        }
                    ],
                    "linkId": "final",
                    "text": "Thank you for completing this survey",
                    "type": "display"
                }
            ],
            "name": "Follow-up survey",
            "publisher": "Harvard Medical School",
            "status": "draft",
            "subjectType": [
                "Patient",
                "Person"
            ],
            "version": "1.0",
            "resourceType": "Questionnaire"
        },
        {
            "id": "protocol-people-heart-study",
            "action": [
                {
                    "id": "demographics_survey",
                    "definitionCanonical": "#definition-demographic-survey",
                    "title": "Demographic information"
                },
                {
                    "id": "clinical_records",
                    "definitionCanonical": "#AD-HealthRecords",
                    "output": [
                        {
                            "codeFilter": [
                                {
                                    "valueSet": "#phs-observations"
                                }
                            ],
                            "subjectCodeableConcept": {
                                "coding": [
                                    {
                                        "code": "Patient",
                                        "display": "Patient",
                                        "system": "http://hl7.org/fhir/ValueSet/subject-type"
                                    }
                                ]
                            },
                            "type": "Observation"
                        },
                        {
                            "codeFilter": [
                                {
                                    "valueSet": "#phs-conditions"
                                }
                            ],
                            "subjectCodeableConcept": {
                                "coding": [
                                    {
                                        "code": "Patient",
                                        "display": "Patient",
                                        "system": "http://hl7.org/fhir/ValueSet/subject-type"
                                    }
                                ]
                            },
                            "type": "Condition"
                        },
                        {
                            "codeFilter": [
                                {
                                    "valueSet": "#phs-medications"
                                }
                            ],
                            "subjectCodeableConcept": {
                                "coding": [
                                    {
                                        "code": "Patient",
                                        "display": "Patient",
                                        "system": "http://hl7.org/fhir/ValueSet/subject-type"
                                    }
                                ]
                            },
                            "type": "MedicationRequest"
                        },
                        {
                            "codeFilter": [
                                {
                                    "valueSet": "#phs-medications"
                                }
                            ],
                            "subjectCodeableConcept": {
                                "coding": [
                                    {
                                        "code": "Patient",
                                        "display": "Patient",
                                        "system": "http://hl7.org/fhir/ValueSet/subject-type"
                                    }
                                ]
                            },
                            "type": "Medication"
                        }
                    ],
                    "relatedAction": [
                        {
                            "actionId": "demographics_survey",
                            "relationship": "after-end"
                        }
                    ],
                    "title": "Getting health records"
                },
                {
                    "id": "risk_enhancers",
                    "action": [
                        {
                            "id": "Action-Definition-RiskFactors-family-history",
                            "definitionCanonical": "#Definition-RiskFactors-family-history",
                            "title": ""
                        },
                        {
                            "id": "Action-Definition-RiskFactors-southasianethnicity",
                            "definitionCanonical": "#Definition-RiskFactors-southasianethnicity",
                            "title": ""
                        },
                        {
                            "id": "Action-Definition-RiskFactors-chronicConditions",
                            "definitionCanonical": "#Definition-RiskFactors-chronicConditions",
                            "title": ""
                        },
                        {
                            "id": "Action-Definition-RiskFactors-chronicKidneyDisease",
                            "definitionCanonical": "#Definition-RiskFactors-chronicKidneyDisease",
                            "title": ""
                        },
                        {
                            "id": "Action-Definition-RiskFactors-female-riskfactors",
                            "condition": [
                                {
                                    "expression": {
                                        "expression": "QuestionnaireResponse.item.where(linkId = \"/54126-8/54131-8\").answer.value",
                                        "language": "text/fhirpth"
                                    },
                                    "kind": "applicability"
                                }
                            ],
                            "definitionCanonical": "#Definition-RiskFactors-female-riskfactors",
                            "title": ""
                        }
                    ],
                    "description": "Answer a series of questions to identify additional risk factors for developing heart attack, stroke or other cardiovascular event.",
                    "relatedAction": [
                        {
                            "actionId": "clinical_records",
                            "relationship": "after-end"
                        }
                    ],
                    "title": "Risk factors survey"
                },
                {
                    "id": "risk_recommendation",
                    "definitionCanonical": "#definition-recommendation",
                    "relatedAction": [
                        {
                            "actionId": "risk_enhancers",
                            "relationship": "after-end"
                        }
                    ],
                    "title": "Guideline-supported Recommendations to control blood cholesterol and prevent heart attack, stroke or other cardiovascular event"
                },
                {
                    "id": "followup_survey",
                    "condition": [
                        {
                            "expression": {
                                "expression": "MedicationRequest?code=dbmi",
                                "language": "application/x-fhir-query"
                            },
                            "kind": "applicability"
                        }
                    ],
                    "definitionCanonical": "#definition-followup-survey",
                    "relatedAction": [
                        {
                            "actionId": "risk_recommendation",
                            "offsetDuration": {
                                "code": "d",
                                "system": "unitofmeasure",
                                "value": 30
                            },
                            "relationship": "after-end"
                        }
                    ],
                    "title": "Follow-up survey"
                }
            ],
            "status": "draft",
            "title": "Protocol of People Heart study",
            "resourceType": "PlanDefinition"
        }
    ],
    "condition": [
        {
            "coding": [
                {
                    "code": "hypercholesterolemia_snomed_code",
                    "display": "Hypercholesterolemia",
                    "system": "http://snomed.info/sct"
                },
                {
                    "code": "hyperthyroidism_snomed_code",
                    "display": "Hyperthyroidism",
                    "system": "http://snomed.info/sct"
                }
            ],
            "text": "Conditions: Hypercholesterolemia and Hyperthyroidism"
        }
    ],
    "contact": [
        {
            "name": "Cassandra Perry",
            "telecom": [
                {
                    "system": "phone",
                    "value": "(617)-432-5484"
                },
                {
                    "system": "email",
                    "value": "ppm@hms.harvard.edu"
                }
            ]
        }
    ],
    "description": "This study will asssess if you can use your health data, from your care provider, to reliably estimate the risk of developing a heart attack, stroke or other cardiovascular event.",
    "enrollment": [
        {
            "reference": "#enrollmentgroup"
        }
    ],
    "identifier": [
        {
            "system": "http://dbmi.hms.harvard.edu",
            "value": "ppm-guidelines-ascvd-study"
        }
    ],
    "note": [
        {
            "text": "<center><img style='margin: 1em 0;' src='data:image/svg+xml;base64,'/>\n</center><h1>About this study</h1><hr/><p>This study will estimate your risk of developing a heart attack, stroke, or other cardiovascular event due to the buildup of cholesterol in your blood.</p>\n\n<p>We will use your health records stored on your iPhone and medical history to recommend lifestyle advice and if you benefit from <strong>medication</strong> to lower blood cholesterol and prevent developing a cardiovascular event in the future.</p>\n\n<p>Recommendations are based on guidelines published by the <em>American College of Cardiology</em> and <em>American Heart Association</em>.</p>\n"
        },
        {
            "text": "<h1>How this study works</h1>\n<hr/>\n<p>After confirming eligibility through this app, you will be presented with a list of <strong>4</strong> steps to complete.</p>\n\n<p>These steps consist of short surveys on your medical history and relevant risk factors for heart disease. We will also ask your permission to retrieve select data from your iPhone's Apple Health app.</p>\n\n<p>We estimate it should take no more than 30 minutes in total to complete all the steps in this research study.</p>\n\n<center><img style='width:250px; height:auto;'\n\tsrc=''/></center>\n"
        },
        {
            "text": "<h1>What will this mean for me?</h1>\n\n<hr/>\n\n<p>Once all steps are completed, you will be able to view and download a recommendations <strong>report</strong> that <strong>can be shared with your doctor.</strong></p>\n\n<p>This report will include information on your estimated risk of developing heart disease, related lab tests and medical history, lifestyle recommendations and if you require a medication, as appropriate.</p>\n"
        },
        {
            "text": "<h1>Why are we conducting this study?</h1>\n<hr/>\n<p>Heart disease is the leading cause of death in the United States.</p> \n\n<p>With appropriate lifestyle and medical management, heart disease can be prevented.</p>\n\n<p>This study will help us better understand your access to health data and how that can empower you with information on current guidelines to prevent heart disease.</p>\n\n"
        },
        {
            "text": "<h1>About us</h1>\n<hr/>\n<p>This study is conducted by the Department of Biomedical Informatics at Harvard Medical School led by Prof. Isaac Kohane, MD, PhD and the People Powered Medicine group. Learn more about our work:</p>\n\n<p><a href=\"https://peoplepoweredmedicine.org/heart\">People Heart Study</a></p>\n<p><a href=\"https://dbmi.hms.harvard.edu\">Department of Biomedical Informatics</a></p>\n<p>Contact us <a href=\"mailto://ppm@hms.harvard.edu\">ppm@hms.harvard.edu</a></p>\n"
        }
    ],
    "objective": [
        {
            "name": "Primary Objective",
            "type": {
                "coding": [
                    {
                        "code": "primary",
                        "display": "Primary",
                        "system": "http://terminology.hl7.org/CodeSystem/research-study-objective-type"
                    }
                ],
                "text": "This study will assess the completeness of health data obtained electronically through the use of SMART on FHIR application programming interface (API)."
            }
        },
        {
            "name": "Secondary Objective",
            "type": {
                "coding": [
                    {
                        "code": "secondary",
                        "display": "Primary",
                        "system": "http://terminology.hl7.org/CodeSystem/research-study-objective-type"
                    }
                ],
                "text": "Based on your data, we will assess if you are currently on recommended therapy for the primary prevention of cardiovascular disease, specifically the use of Statin medications"
            }
        }
    ],
    "primaryPurposeType": {
        "coding": [
            {
                "code": "screening",
                "display": "SCREENING",
                "system": "http://terminology.hl7.org/CodeSystem/research-study-prim-purp-type"
            },
            {
                "code": "health-services-research",
                "display": "HEALTH-SERVICES-RESEARCH",
                "system": "http://terminology.hl7.org/CodeSystem/research-study-prim-purp-type"
            }
        ]
    },
    "protocol": [
        {
            "display": "People Heart Study protocol",
            "reference": "#protocol-people-heart-study"
        }
    ],
    "sponsor": {
        "reference": "#hms_organization"
    },
    "status": "active",
    "title": "People Heart Study",
    "resourceType": "ResearchStudy"
}